stair.thisTrialN,stair.stepSize,stair.intensity,thisRow.t,notes,trial.started,fixation.started,grating.started,key_resp.started,fixation.stopped,grating.stopped,trial.stopped,corrAns,tilt,key_resp.corr,stair.response,key_resp.rt,participant,session,date,expName,psychopyVersion,frameRate,expStart,
0,2,10.0,0.035013300002901815,,0.016478399993502535,0.035013300002901815,0.5178492999984883,0.5178492999984883,0.5350771999947028,0.8189857999968808,1.1630774000077508,right,10.0,1,1,0.5735005000024103,063756,001,2024-09-09_11h40.03.343,adaptive_staircase,2024.1.5,None,2024-09-09 11h40.08.568620 +0530,
1,2,8.0,1.1677519000077154,,1.1631753999972716,1.1677519000077154,1.6699521999980789,1.6699521999980789,1.6699521999980789,1.9699142000026768,2.1054939000023296,right,8.0,1,1,0.4275662000000011,063756,001,2024-09-09_11h40.03.343,adaptive_staircase,2024.1.5,None,2024-09-09 11h40.08.568620 +0530,
2,2,6.0,2.1203329999989364,,2.105582799995318,2.1203329999989364,2.6047780999942916,2.6047780999942916,2.62119829999574,2.9045138000074076,2.922584400002961,right,6.0,1,1,0.3114296999992803,063756,001,2024-09-09_11h40.03.343,adaptive_staircase,2024.1.5,None,2024-09-09 11h40.08.568620 +0530,
3,1,4.0,2.937887000007322,,2.9226542999967933,2.937887000007322,3.438280400005169,3.438280400005169,3.438280400005169,3.7388270999945235,3.7236065000033705,left,-4.0,0,0,0.28030300000682473,063756,001,2024-09-09_11h40.03.343,adaptive_staircase,2024.1.5,None,2024-09-09 11h40.08.568620 +0530,
4,1,5.0,3.7388270999945235,,3.723677799993311,3.7388270999945235,4.222665399996913,4.222665399996913,4.239311199999065,4.522925700002816,5.158278100003372,left,-5.0,1,1,0.9269759000017075,063756,001,2024-09-09_11h40.03.343,adaptive_staircase,2024.1.5,None,2024-09-09 11h40.08.568620 +0530,
5,1,5.0,5.17359989999386,,5.158344800001942,5.17359989999386,5.674430900005973,5.674430900005973,5.674430900005973,5.974362699998892,6.142892200005008,left,-5.0,0,0,0.459448199995677,063756,001,2024-09-09_11h40.03.343,adaptive_staircase,2024.1.5,None,2024-09-09 11h40.08.568620 +0530,
6,1,6.0,6.158228500004043,,6.142961599995033,6.158228500004043,6.642361200007144,6.642361200007144,6.6595965000014985,6.942262600001413,7.26061579999805,left,-6.0,1,1,0.6162627000012435,063756,001,2024-09-09_11h40.03.343,adaptive_staircase,2024.1.5,None,2024-09-09 11h40.08.568620 +0530,
7,1,6.0,7.276131200007512,,7.260690399998566,7.276131200007512,7.759967499994673,7.759967499994673,7.77714210000704,8.060102600007667,8.295157300002757,right,6.0,1,1,0.529934799997136,063756,001,2024-09-09_11h40.03.343,adaptive_staircase,2024.1.5,None,2024-09-09 11h40.08.568620 +0530,
8,1,6.0,8.310594099995797,,8.29523319999862,8.310594099995797,8.794435999996495,8.794435999996495,8.811086600006092,9.094516900004237,9.27962529999786,right,6.0,1,1,0.46904569999605883,063756,001,2024-09-09_11h40.03.343,adaptive_staircase,2024.1.5,None,2024-09-09 11h40.08.568620 +0530,
9,1,5.0,9.294902499997988,,9.279697300007683,9.294902499997988,9.77891219999583,9.77891219999583,9.795598500000779,10.079071400003158,10.34805650000635,left,-5.0,1,1,0.5656067999952938,063756,001,2024-09-09_11h40.03.343,adaptive_staircase,2024.1.5,None,2024-09-09 11h40.08.568620 +0530,
10,1,5.0,10.362647700007074,,10.348193400001037,10.362647700007074,10.864182200006326,10.864182200006326,10.864182200006326,11.163830300007248,11.3316657999967,left,-5.0,1,1,0.4515737000037916,063756,001,2024-09-09_11h40.03.343,adaptive_staircase,2024.1.5,None,2024-09-09 11h40.08.568620 +0530,
11,1,5.0,11.34738269999798,,11.331811600000947,11.34738269999798,11.830950300005497,11.830950300005497,11.847621199995046,12.131573699996807,12.316189100005431,right,5.0,1,1,0.4728180000092834,063756,001,2024-09-09_11h40.03.343,adaptive_staircase,2024.1.5,None,2024-09-09 11h40.08.568620 +0530,
12,1,4.0,12.331854699994437,,12.316265800007386,12.331854699994437,12.815654899997753,12.815654899997753,12.83241810000618,13.115950199993677,13.401110799997696,right,4.0,1,1,0.5695512000093004,063756,001,2024-09-09_11h40.03.343,adaptive_staircase,2024.1.5,None,2024-09-09 11h40.08.568620 +0530,
13,1,4.0,13.41613789999974,,13.401181299996097,13.41613789999974,13.91666940000141,13.91666940000141,13.91666940000141,14.217145799993887,14.435516600002302,left,-4.0,1,1,0.5108656000084011,063756,001,2024-09-09_11h40.03.343,adaptive_staircase,2024.1.5,None,2024-09-09 11h40.08.568620 +0530,
14,1,4.0,14.450569699998596,,14.435579199998756,14.450569699998596,14.951486599995405,14.951486599995405,14.951486599995405,15.251701500004856,15.502046299996437,left,-4.0,1,1,0.5460854999982985,063756,001,2024-09-09_11h40.03.343,adaptive_staircase,2024.1.5,None,2024-09-09 11h40.08.568620 +0530,
15,1,3.0,15.5176277999999,,15.50211319999653,15.5176277999999,16.00215780000144,16.00215780000144,16.019499799993355,16.302793900002143,16.504418199998327,right,3.0,1,1,0.499166099994909,063756,001,2024-09-09_11h40.03.343,adaptive_staircase,2024.1.5,None,2024-09-09 11h40.08.568620 +0530,
16,1,3.0,16.51974170000176,,16.504485400000704,16.51974170000176,17.003554399998393,17.003554399998393,17.020103799994104,17.303605199995218,17.372193200004403,left,-3.0,1,1,0.3579420000023674,063756,001,2024-09-09_11h40.03.343,adaptive_staircase,2024.1.5,None,2024-09-09 11h40.08.568620 +0530,
17,1,3.0,17.386966100006248,,17.372262899996713,17.386966100006248,17.88775720000558,17.88775720000558,17.88775720000558,18.187969799997518,18.689702500007115,left,-3.0,1,1,0.7902199000091059,063756,001,2024-09-09_11h40.03.343,adaptive_staircase,2024.1.5,None,2024-09-09 11h40.08.568620 +0530,
18,1,2.0,18.705279300003895,,18.68976730000577,18.705279300003895,19.189704899996286,19.189704899996286,19.205859900001087,19.489930199997616,19.590879499999573,right,2.0,1,1,0.3990800000028685,063756,001,2024-09-09_11h40.03.343,adaptive_staircase,2024.1.5,None,2024-09-09 11h40.08.568620 +0530,
19,1,2.0,19.606328299996676,,19.590947100004996,19.606328299996676,20.089941400001408,20.089941400001408,20.10711280000396,20.390360999997938,20.75877080000646,right,2.0,1,1,0.6592555000097491,063756,001,2024-09-09_11h40.03.343,adaptive_staircase,2024.1.5,None,2024-09-09 11h40.08.568620 +0530,
20,1,2.0,20.774038999996264,,20.758837200002745,20.774038999996264,21.25832320000336,21.25832320000336,21.275175400005537,21.558405100004165,21.710075700000743,right,2.0,1,1,0.4475382999953581,063756,001,2024-09-09_11h40.03.343,adaptive_staircase,2024.1.5,None,2024-09-09 11h40.08.568620 +0530,
21,1,1.0,21.725290100002894,,21.71014589999686,21.725290100002894,22.209339099994395,22.209339099994395,22.225901700003305,22.50950539999758,22.56070469999395,right,1.0,1,1,0.3365823999920394,063756,001,2024-09-09_11h40.03.343,adaptive_staircase,2024.1.5,None,2024-09-09 11h40.08.568620 +0530,
22,1,1.0,22.57635879999725,,22.56076930000563,22.57635879999725,23.060550900001545,23.060550900001545,23.077262699996936,23.3603296999936,23.59531230000721,right,1.0,1,1,0.5185113999905298,063756,001,2024-09-09_11h40.03.343,adaptive_staircase,2024.1.5,None,2024-09-09 11h40.08.568620 +0530,
23,1,1.0,23.610657700002776,,23.595375999997486,23.610657700002776,24.09455419999722,24.09455419999722,24.111500300001353,24.394497400004184,24.696453600001405,right,1.0,1,1,0.5878231999959098,063756,001,2024-09-09_11h40.03.343,adaptive_staircase,2024.1.5,None,2024-09-09 11h40.08.568620 +0530,
24,1,1.0,24.712260300002526,,24.696526900006575,24.712260300002526,25.196375200001057,25.196375200001057,25.212672399997246,25.495971600001212,25.814899699995294,right,1.0,1,1,0.6086802999925567,063756,001,2024-09-09_11h40.03.343,adaptive_staircase,2024.1.5,None,2024-09-09 11h40.08.568620 +0530,
25,1,1.0,25.829721300004167,,25.81497870000021,25.829721300004167,26.330435600000783,26.330435600000783,26.330435600000783,26.630618299997877,27.08292380000057,right,1.0,1,1,0.7367100999981631,063756,001,2024-09-09_11h40.03.343,adaptive_staircase,2024.1.5,None,2024-09-09 11h40.08.568620 +0530,
26,0.5,1.0,27.097865899995668,,27.082996500001173,27.097865899995668,27.58206380000047,27.58206380000047,27.598817999998573,27.882064100005664,28.4506693000003,right,1.0,0,0,0.8624849000043469,063756,001,2024-09-09_11h40.03.343,adaptive_staircase,2024.1.5,None,2024-09-09 11h40.08.568620 +0530,
27,0.5,1.5,28.466472600004636,,28.4507375999965,28.466472600004636,28.967583699995885,28.967583699995885,28.967583699995885,29.26708220000728,29.6018677999964,right,1.5,1,1,0.6259526000067126,063756,001,2024-09-09_11h40.03.343,adaptive_staircase,2024.1.5,None,2024-09-09 11h40.08.568620 +0530,
28,0.5,1.5,29.61753200000385,,29.60200939999777,29.61753200000385,30.11777749999601,30.11777749999601,30.11777749999601,30.4180486999976,30.619479200002388,left,-1.5,1,1,0.488092500003404,063756,001,2024-09-09_11h40.03.343,adaptive_staircase,2024.1.5,None,2024-09-09 11h40.08.568620 +0530,
29,0.5,1.5,30.635107199996128,,30.619547800000873,30.635107199996128,31.11898569999903,31.11898569999903,31.13581809999596,31.419229799997993,31.57065270000021,left,-1.5,0,0,0.43585380000877194,063756,001,2024-09-09_11h40.03.343,adaptive_staircase,2024.1.5,None,2024-09-09 11h40.08.568620 +0530,
30,0.5,2.0,31.586391699995147,,31.57071869999345,31.586391699995147,32.07006630000251,32.07006630000251,32.08702360000461,32.3704177000036,32.605429799994454,left,-2.0,1,1,0.5331367000035243,063756,001,2024-09-09_11h40.03.343,adaptive_staircase,2024.1.5,None,2024-09-09 11h40.08.568620 +0530,
31,0.5,2.0,32.62071139999898,,32.60557990000234,32.62071139999898,33.104740599999786,33.104740599999786,33.121551300006104,33.40494609999587,33.523554300001706,right,2.0,1,1,0.40583100001094863,063756,001,2024-09-09_11h40.03.343,adaptive_staircase,2024.1.5,None,2024-09-09 11h40.08.568620 +0530,
32,0.5,2.0,33.53822289999516,,33.5236212000018,33.53822289999516,34.039064299999154,34.039064299999154,34.039064299999154,34.339510699996026,34.45728560000134,right,2.0,0,0,0.41236960000242107,063756,001,2024-09-09_11h40.03.343,adaptive_staircase,2024.1.5,None,2024-09-09 11h40.08.568620 +0530,
33,0.5,2.5,34.47267770000326,,34.4573534999945,34.47267770000326,34.95663099999365,34.95663099999365,34.97338480000326,35.257119000001694,35.5588820999983,right,2.5,1,1,0.600726399992709,063756,001,2024-09-09_11h40.03.343,adaptive_staircase,2024.1.5,None,2024-09-09 11h40.08.568620 +0530,
34,0.5,2.5,35.57379340000625,,35.558947700003046,35.57379340000625,36.07465759999468,36.07465759999468,36.07465759999468,36.37477300000319,36.5761971000029,right,2.5,1,1,0.49472099999547936,063756,001,2024-09-09_11h40.03.343,adaptive_staircase,2024.1.5,None,2024-09-09 11h40.08.568620 +0530,
35,0.5,2.5,36.59139359999972,,36.57630169999902,36.59139359999972,37.075568200001726,37.075568200001726,37.09245969999756,37.37586739999824,37.878624100005254,left,-2.5,1,1,0.7993019999994431,063756,001,2024-09-09_11h40.03.343,adaptive_staircase,2024.1.5,None,2024-09-09 11h40.08.568620 +0530,
36,0.5,2.0,37.89294150000205,,37.87870990000374,37.89294150000205,38.39375299999665,38.39375299999665,38.39375299999665,38.69397449999815,39.512749300003634,left,-2.0,1,1,1.1114011000026949,063756,001,2024-09-09_11h40.03.343,adaptive_staircase,2024.1.5,None,2024-09-09 11h40.08.568620 +0530,
37,0.5,2.0,39.52832660000422,,39.51281889999518,39.52832660000422,40.01228799999808,40.01228799999808,40.02896409999812,40.31306840000616,40.513857600002666,left,-2.0,1,1,0.4961687000031816,063756,001,2024-09-09_11h40.03.343,adaptive_staircase,2024.1.5,None,2024-09-09 11h40.08.568620 +0530,
38,0.5,2.0,40.52949159999844,,40.51392169999599,40.52949159999844,41.01319220000005,41.01319220000005,41.03013080000528,41.31332719999773,41.765167200006545,right,2.0,1,1,0.7430794999963837,063756,001,2024-09-09_11h40.03.343,adaptive_staircase,2024.1.5,None,2024-09-09 11h40.08.568620 +0530,
39,0.5,1.5,41.78090519999387,,41.765239200001815,41.78090519999387,42.26454669999657,42.26454669999657,42.281409600007464,42.56522550000227,42.966730400003144,right,1.5,1,1,0.6988087999925483,063756,001,2024-09-09_11h40.03.343,adaptive_staircase,2024.1.5,None,2024-09-09 11h40.08.568620 +0530,
40,0.5,1.5,42.98220749999746,,42.96679380000569,42.98220749999746,43.46583570000075,43.46583570000075,43.48263250000309,43.76595420000376,44.01811689999886,left,-1.5,1,1,0.5470108000008622,063756,001,2024-09-09_11h40.03.343,adaptive_staircase,2024.1.5,None,2024-09-09 11h40.08.568620 +0530,
41,0.5,1.5,44.034122600001865,,44.01820390000648,44.034122600001865,44.533696300000884,44.533696300000884,44.533696300000884,44.83418439999514,44.98529100000451,right,1.5,0,0,0.4466199000016786,063756,001,2024-09-09_11h40.03.343,adaptive_staircase,2024.1.5,None,2024-09-09 11h40.08.568620 +0530,
42,0.5,2.0,45.00096800000756,,44.985369300004095,45.00096800000756,45.48519930000475,45.48519930000475,45.50118130000192,45.784951299996465,46.05411729999469,right,2.0,1,1,0.5653847999928985,063756,001,2024-09-09_11h40.03.343,adaptive_staircase,2024.1.5,None,2024-09-09 11h40.08.568620 +0530,
43,0.5,2.0,46.068625800005975,,46.054214200004935,46.068625800005975,46.56936740000674,46.56936740000674,46.56936740000674,46.86970160000783,47.02125309999974,left,-2.0,1,1,0.44427880000148434,063756,001,2024-09-09_11h40.03.343,adaptive_staircase,2024.1.5,None,2024-09-09 11h40.08.568620 +0530,
44,0.5,2.0,47.03654749999987,,47.02133370000229,47.03654749999987,47.53729849999945,47.53729849999945,47.53729849999945,47.83725979999872,48.38926549999451,right,2.0,1,1,0.837442000003648,063756,001,2024-09-09_11h40.03.343,adaptive_staircase,2024.1.5,None,2024-09-09 11h40.08.568620 +0530,
45,0.5,1.5,48.40450370000326,,48.3893323999946,48.40450370000326,48.88853710000694,48.88853710000694,48.90527580000344,49.18934729999455,49.5913256000058,right,1.5,0,0,0.6939433999941684,063756,001,2024-09-09_11h40.03.343,adaptive_staircase,2024.1.5,None,2024-09-09 11h40.08.568620 +0530,
46,0.5,2.0,49.6058297999989,,49.59142579999752,49.6058297999989,50.106912200004444,50.106912200004444,50.106912200004444,50.40715660000569,50.60764960000233,left,-2.0,1,1,0.4940523000113899,063756,001,2024-09-09_11h40.03.343,adaptive_staircase,2024.1.5,None,2024-09-09 11h40.08.568620 +0530,
47,0.5,2.0,50.62304409999342,,50.607714300000225,50.62304409999342,51.10764250000648,51.10764250000648,51.124480099999346,51.408151600000565,51.49216310000338,left,-2.0,1,1,0.37122079999244306,063756,001,2024-09-09_11h40.03.343,adaptive_staircase,2024.1.5,None,2024-09-09 11h40.08.568620 +0530,
48,0.5,2.0,51.50762360000226,,51.49223069999425,51.50762360000226,51.991933700002846,51.991933700002846,52.00882060000731,52.29208240000298,52.52746670000488,right,2.0,1,1,0.5309063000022434,063756,001,2024-09-09_11h40.03.343,adaptive_staircase,2024.1.5,None,2024-09-09 11h40.08.568620 +0530,
49,0.5,1.5,52.54245720000472,,52.527533800006495,52.54245720000472,53.04298660000495,53.04298660000495,53.04298660000495,53.343314600002486,53.461389200005215,left,-1.5,1,1,0.40997399999469053,063756,001,2024-09-09_11h40.03.343,adaptive_staircase,2024.1.5,None,2024-09-09 11h40.08.568620 +0530,
50,0.5,1.5,53.47734139999375,,53.46147259999998,53.47734139999375,53.96084840000549,53.96084840000549,53.9777471999987,54.26078579999739,54.46272609999869,left,-1.5,1,1,0.48895210000046063,063756,001,2024-09-09_11h40.03.343,adaptive_staircase,2024.1.5,None,2024-09-09 11h40.08.568620 +0530,
51,0.5,1.5,54.47791830000642,,54.46279259999574,54.47791830000642,54.97857409999415,54.97857409999415,54.97857409999415,55.279071800003294,55.31350040000689,left,-1.5,1,1,0.31844570000248495,063756,001,2024-09-09_11h40.03.343,adaptive_staircase,2024.1.5,None,2024-09-09 11h40.08.568620 +0530,
52,0.5,1.0,55.32867889999761,,55.31357699999353,55.32867889999761,55.8128560000041,55.8128560000041,55.829731699996046,56.11292420000245,56.23183180000342,right,1.0,0,0,0.4051882000057958,063756,001,2024-09-09_11h40.03.343,adaptive_staircase,2024.1.5,None,2024-09-09 11h40.08.568620 +0530,
53,0.5,1.5,56.24699490000785,,56.23197330000403,56.24699490000785,56.74674830000731,56.74674830000731,56.74674830000731,57.04744480000227,57.4825589999964,right,1.5,1,1,0.7250955000054091,063756,001,2024-09-09_11h40.03.343,adaptive_staircase,2024.1.5,None,2024-09-09 11h40.08.568620 +0530,
54,0.5,1.5,57.49796979999519,,57.48262409999734,57.49796979999519,57.99924849999661,57.99924849999661,57.99924849999661,58.29926379999961,58.65016170000308,right,1.5,1,1,0.6461678000050597,063756,001,2024-09-09_11h40.03.343,adaptive_staircase,2024.1.5,None,2024-09-09 11h40.08.568620 +0530,
55,0.5,1.5,58.665764799996396,,58.65022530000715,58.665764799996396,59.14981830000761,59.14981830000761,59.16678149999643,59.450037400005385,59.95197819999885,right,1.5,0,0,0.7903965000004973,063756,001,2024-09-09_11h40.03.343,adaptive_staircase,2024.1.5,None,2024-09-09 11h40.08.568620 +0530,
56,0.5,2.0,59.96792730000743,,59.95204780000495,59.96792730000743,60.45147960000031,60.45147960000031,60.467827600004966,60.75195020000683,61.02008620000561,left,-2.0,0,0,0.562208900009864,063756,001,2024-09-09_11h40.03.343,adaptive_staircase,2024.1.5,None,2024-09-09 11h40.08.568620 +0530,
57,0.5,2.5,61.03514140000334,,61.020155799997156,61.03514140000334,61.53614060000109,61.53614060000109,61.53614060000109,61.83609440000146,62.204468500000075,right,2.5,1,1,0.652714299998479,063756,001,2024-09-09_11h40.03.343,adaptive_staircase,2024.1.5,None,2024-09-09 11h40.08.568620 +0530,
58,0.5,2.5,62.22014140000101,,62.20460729999468,62.22014140000101,62.70406269999512,62.70406269999512,62.720304600006784,63.00391810000292,63.223110399994766,right,2.5,1,1,0.5136271999945166,063756,001,2024-09-09_11h40.03.343,adaptive_staircase,2024.1.5,None,2024-09-09 11h40.08.568620 +0530,
59,0.5,2.5,63.23805050000374,,63.22320769999351,63.23805050000374,63.73838070000056,63.73838070000056,63.73838070000056,64.03886919999786,64.24008329999924,left,-2.5,1,1,0.4983533000049647,063756,001,2024-09-09_11h40.03.343,adaptive_staircase,2024.1.5,None,2024-09-09 11h40.08.568620 +0530,
60,0.5,2.0,64.25542929999938,,64.24015009999857,64.25542929999938,64.73921250000421,64.73921250000421,64.75705260000541,65.04012269999657,65.29083060000266,right,2.0,1,1,0.5422008000023197,063756,001,2024-09-09_11h40.03.343,adaptive_staircase,2024.1.5,None,2024-09-09 11h40.08.568620 +0530,
61,0.5,2.0,65.30657820000488,,65.2909076000069,65.30657820000488,65.79067040000518,65.79067040000518,65.80725850000454,66.09084479999729,66.30924689999665,left,-2.0,1,1,0.5158414000034099,063756,001,2024-09-09_11h40.03.343,adaptive_staircase,2024.1.5,None,2024-09-09 11h40.08.568620 +0530,
62,0.5,2.0,66.32429220000631,,66.3093213999964,66.32429220000631,66.80828660000407,66.80828660000407,66.8249960999965,67.10846839999431,67.24311820000003,left,-2.0,1,1,0.42719279999437276,063756,001,2024-09-09_11h40.03.343,adaptive_staircase,2024.1.5,None,2024-09-09 11h40.08.568620 +0530,
63,0.5,1.5,67.2589125999948,,67.24324860000343,67.2589125999948,67.74281830000109,67.74281830000109,67.75935959999333,68.0432518000016,68.44462029999704,right,1.5,1,1,0.6950771000119857,063756,001,2024-09-09_11h40.03.343,adaptive_staircase,2024.1.5,None,2024-09-09 11h40.08.568620 +0530,
64,0.5,1.5,68.45991459999641,,68.44469620000746,68.45991459999641,68.94406320000417,68.94406320000417,68.96105460000399,69.24423100000422,69.56239930000447,left,-1.5,1,1,0.6117467000003671,063756,001,2024-09-09_11h40.03.343,adaptive_staircase,2024.1.5,None,2024-09-09 11h40.08.568620 +0530,
65,0.5,1.5,69.57834720000392,,69.56246180000016,69.57834720000392,70.06197640000028,70.06197640000028,70.07906649999495,70.36265090000234,70.49673860000621,right,1.5,0,0,0.4288775000022724,063756,001,2024-09-09_11h40.03.343,adaptive_staircase,2024.1.5,None,2024-09-09 11h40.08.568620 +0530,
66,0.5,2.0,70.51225569999951,,70.49681880000571,70.51225569999951,70.99638759999652,70.99638759999652,71.0128332000022,71.29655349999666,72.01494940000703,left,-2.0,1,1,1.0021433000074467,063756,001,2024-09-09_11h40.03.343,adaptive_staircase,2024.1.5,None,2024-09-09 11h40.08.568620 +0530,
67,0.5,2.0,72.03097819999675,,72.01502950000577,72.03097819999675,72.51444319999428,72.51444319999428,72.53101180000522,72.81520330000785,72.98312770000484,right,2.0,1,1,0.45656469999812543,063756,001,2024-09-09_11h40.03.343,adaptive_staircase,2024.1.5,None,2024-09-09 11h40.08.568620 +0530,
68,0.5,2.0,72.99833810000564,,72.98319090000587,72.99833810000564,73.482285399994,73.482285399994,73.49907049999456,73.78257840000151,73.98508100000618,right,2.0,1,1,0.501281700009713,063756,001,2024-09-09_11h40.03.343,adaptive_staircase,2024.1.5,None,2024-09-09 11h40.08.568620 +0530,
69,0.5,1.5,73.9994602999941,,73.98523780000687,73.9994602999941,74.50067520000448,74.50067520000448,74.50067520000448,74.80046369999764,75.23530200000096,right,1.5,1,1,0.71737949999806,063756,001,2024-09-09_11h40.03.343,adaptive_staircase,2024.1.5,None,2024-09-09 11h40.08.568620 +0530,
70,0.5,1.5,75.25076130000525,,75.23536740000418,75.25076130000525,75.73466909999843,75.73466909999843,75.75176909999573,76.03515939999488,76.47066449999693,left,-1.5,0,0,0.7306745000096271,063756,001,2024-09-09_11h40.03.343,adaptive_staircase,2024.1.5,None,2024-09-09 11h40.08.568620 +0530,
71,0.5,2.0,76.48584370000754,,76.47075269999914,76.48584370000754,76.9863628000021,76.9863628000021,76.9863628000021,77.2866811999993,77.55498240000452,right,2.0,1,1,0.5612358999933349,063756,001,2024-09-09_11h40.03.343,adaptive_staircase,2024.1.5,None,2024-09-09 11h40.08.568620 +0530,
72,0.5,2.0,77.57009110000217,,77.5550474000047,77.57009110000217,78.05430859999615,78.05430859999615,78.07066019999911,78.35446020000381,78.4891695999977,left,-2.0,0,0,0.4262142999941716,063756,001,2024-09-09_11h40.03.343,adaptive_staircase,2024.1.5,None,2024-09-09 11h40.08.568620 +0530,
73,0.5,2.5,78.50438680000661,,78.48924480000278,78.50438680000661,78.98861509999551,78.98861509999551,79.00494719999551,79.28878560000157,79.47490220000327,left,-2.5,0,0,0.4846831999893766,063756,001,2024-09-09_11h40.03.343,adaptive_staircase,2024.1.5,None,2024-09-09 11h40.08.568620 +0530,
74,0.5,3.0,79.48928069999965,,79.47498339999584,79.48928069999965,79.98984439999913,79.98984439999913,79.98984439999913,80.28984310000669,80.67485609999858,left,-3.0,1,1,0.6693203000031644,063756,001,2024-09-09_11h40.03.343,adaptive_staircase,2024.1.5,None,2024-09-09 11h40.08.568620 +0530,
75,0.5,3.0,80.6901971000043,,80.67493100000138,80.6901971000043,81.17404510000779,81.17404510000779,81.19099469999492,81.4745139000006,81.59319899999537,right,3.0,1,1,0.41579309999360703,063756,001,2024-09-09_11h40.03.343,adaptive_staircase,2024.1.5,None,2024-09-09 11h40.08.568620 +0530,
76,0.5,3.0,81.60786689999804,,81.59326660000079,81.60786689999804,82.10842940000293,82.10842940000293,82.10842940000293,82.40880319999997,82.61029900000722,left,-3.0,1,1,0.4943070000008447,063756,001,2024-09-09_11h40.03.343,adaptive_staircase,2024.1.5,None,2024-09-09 11h40.08.568620 +0530,
77,0.5,2.5,82.62561360000109,,82.61037920000672,82.62561360000109,83.1097243999975,83.1097243999975,83.12623229999735,83.40993409999646,83.7959458999976,left,-2.5,1,1,0.6846739000029629,063756,001,2024-09-09_11h40.03.343,adaptive_staircase,2024.1.5,None,2024-09-09 11h40.08.568620 +0530,
78,0.5,2.5,83.81041190000542,,83.79601710000134,83.81041190000542,84.31089130000328,84.31089130000328,84.31089130000328,84.61126479999803,84.7793093000073,left,-2.5,1,1,0.46144729999650735,063756,001,2024-09-09_11h40.03.343,adaptive_staircase,2024.1.5,None,2024-09-09 11h40.08.568620 +0530,
79,0.5,2.5,84.7945910999988,,84.77938390000782,84.7945910999988,85.27874310000334,85.27874310000334,85.29540109999652,85.57880329999898,85.69685059999756,left,-2.5,1,1,0.40108320000581443,063756,001,2024-09-09_11h40.03.343,adaptive_staircase,2024.1.5,None,2024-09-09 11h40.08.568620 +0530,
80,0.5,2.0,85.71240899999975,,85.69691939999757,85.71240899999975,86.19644489999337,86.19644489999337,86.21328939999512,86.49641639999754,86.59807419999561,right,2.0,0,0,0.3878543000028003,063756,001,2024-09-09_11h40.03.343,adaptive_staircase,2024.1.5,None,2024-09-09 11h40.08.568620 +0530,
81,0.5,2.5,86.6134607999993,,86.59814339999866,86.6134607999993,87.09734219999518,87.09734219999518,87.11418859999685,87.39776300000085,87.64915310000652,right,2.5,1,1,0.548718000005465,063756,001,2024-09-09_11h40.03.343,adaptive_staircase,2024.1.5,None,2024-09-09 11h40.08.568620 +0530,
82,0.5,2.5,87.66494849999435,,87.64925940000103,87.66494849999435,88.14862069999799,88.14862069999799,88.16549630000372,88.44878690000041,88.61682789999759,left,-2.5,1,1,0.46270230000664014,063756,001,2024-09-09_11h40.03.343,adaptive_staircase,2024.1.5,None,2024-09-09 11h40.08.568620 +0530,
83,0.5,2.5,88.63222119999409,,88.61689829999523,88.63222119999409,89.11675669999386,89.11675669999386,89.13280000000668,89.41703490000509,89.61798080000153,left,-2.5,0,0,0.49174240000138525,063756,001,2024-09-09_11h40.03.343,adaptive_staircase,2024.1.5,None,2024-09-09 11h40.08.568620 +0530,
84,0.5,3.0,89.63350999999966,,89.61805200000526,89.63350999999966,90.13375730000553,90.13375730000553,90.13375730000553,90.43398539999907,90.7529244000034,left,-3.0,1,1,0.61325909999141,063756,001,2024-09-09_11h40.03.343,adaptive_staircase,2024.1.5,None,2024-09-09 11h40.08.568620 +0530,
85,0.5,3.0,90.76784840000619,,90.75304729999334,90.76784840000619,91.2518815999938,91.2518815999938,91.26873239999986,91.55231129999447,91.70394960000704,left,-3.0,1,1,0.4505817000026582,063756,001,2024-09-09_11h40.03.343,adaptive_staircase,2024.1.5,None,2024-09-09 11h40.08.568620 +0530,
86,0.5,3.0,91.71919960000378,,91.7040330000018,91.71919960000378,92.2029457000026,92.2029457000026,92.21988239999337,92.50322260000394,92.58806160000677,left,-3.0,1,1,0.3690101000102004,063756,001,2024-09-09_11h40.03.343,adaptive_staircase,2024.1.5,None,2024-09-09 11h40.08.568620 +0530,
87,0.5,2.5,92.6034212999948,,92.58812860000762,92.6034212999948,93.08746640000027,93.08746640000027,93.10452429999714,93.3874300000025,93.5220840999973,left,-2.5,1,1,0.424269799987087,063756,001,2024-09-09_11h40.03.343,adaptive_staircase,2024.1.5,None,2024-09-09 11h40.08.568620 +0530,
88,0.5,2.5,93.53749990000506,,93.52218499999435,93.53749990000506,94.02169409999624,94.02169409999624,94.03840530000161,94.32263480000256,94.38963649999641,left,-2.5,1,1,0.3607664000010118,063756,001,2024-09-09_11h40.03.343,adaptive_staircase,2024.1.5,None,2024-09-09 11h40.08.568620 +0530,
89,0.5,2.5,94.40551029999915,,94.38970290000725,94.40551029999915,94.88932649999333,94.88932649999333,94.90596760000335,95.19066000000748,95.52360430000408,right,2.5,1,1,0.6181083000119543,063756,001,2024-09-09_11h40.03.343,adaptive_staircase,2024.1.5,None,2024-09-09 11h40.08.568620 +0530,
90,0.5,2.0,95.53987740000593,,95.5236767000024,95.53987740000593,96.02432349999435,96.02432349999435,96.04072580000502,96.32448850000219,96.44206689999555,left,-2.0,1,1,0.40777010000601877,063756,001,2024-09-09_11h40.03.343,adaptive_staircase,2024.1.5,None,2024-09-09 11h40.08.568620 +0530,
91,0.5,2.0,96.45765900000697,,96.442137799997,96.45765900000697,96.94169079999847,96.94169079999847,96.95834620000096,97.24168239999563,97.49344000000565,left,-2.0,1,1,0.5402279999980237,063756,001,2024-09-09_11h40.03.343,adaptive_staircase,2024.1.5,None,2024-09-09 11h40.08.568620 +0530,
92,0.5,2.0,97.50871730000654,,97.49350389999745,97.50871730000654,97.9929809000023,97.9929809000023,98.00943809999444,98.29305130000284,98.59556190000148,left,-2.0,1,1,0.6005030999949668,063756,001,2024-09-09_11h40.03.343,adaptive_staircase,2024.1.5,None,2024-09-09 11h40.08.568620 +0530,
93,0.5,1.5,98.6098151000042,,98.59563860000344,98.6098151000042,99.1113222999993,99.1113222999993,99.1113222999993,99.41097919999447,99.4787917000067,left,-1.5,1,1,0.35336339999048505,063756,001,2024-09-09_11h40.03.343,adaptive_staircase,2024.1.5,None,2024-09-09 11h40.08.568620 +0530,
94,0.5,1.5,99.49433030000364,,99.47886020000442,99.49433030000364,99.97799129999476,99.97799129999476,99.99497990000236,100.27865000000747,100.26420449999569,left,-1.5,1,1,0.2846165000082692,063756,001,2024-09-09_11h40.03.343,adaptive_staircase,2024.1.5,None,2024-09-09 11h40.08.568620 +0530,
95,0.5,1.5,100.27865000000747,,100.26428089999536,100.27865000000747,100.77940889999445,100.77940889999445,100.77940889999445,101.07982519999496,101.49739469999622,right,1.5,1,1,0.70112510000763,063756,001,2024-09-09_11h40.03.343,adaptive_staircase,2024.1.5,None,2024-09-09 11h40.08.568620 +0530,
96,0.5,1.0,101.51305510000384,,101.49747560000105,101.51305510000384,102.01329010000336,102.01329010000336,102.01329010000336,102.31399510000483,102.54914730000019,right,1.0,0,0,0.5223843999992823,063756,001,2024-09-09_11h40.03.343,adaptive_staircase,2024.1.5,None,2024-09-09 11h40.08.568620 +0530,
97,0.5,1.5,102.56419059999462,,102.54924310000206,102.56419059999462,103.04829259999678,103.04829259999678,103.06512400000065,103.34853740000108,103.96705780000775,right,1.5,1,1,0.9051668999891263,063756,001,2024-09-09_11h40.03.343,adaptive_staircase,2024.1.5,None,2024-09-09 11h40.08.568620 +0530,
98,0.5,1.5,103.98249189999478,,103.96712240000488,103.98249189999478,104.46652370000083,104.46652370000083,104.48307719999866,104.76675619999878,105.00217619999603,left,-1.5,1,1,0.5288538000022527,063756,001,2024-09-09_11h40.03.343,adaptive_staircase,2024.1.5,None,2024-09-09 11h40.08.568620 +0530,
99,0.5,1.5,105.01733899999817,,105.00225780000619,105.01733899999817,105.50102799999877,105.50102799999877,105.51759879999736,105.80126170000585,106.08587520000583,right,1.5,1,1,0.5685026999999536,063756,001,2024-09-09_11h40.03.343,adaptive_staircase,2024.1.5,None,2024-09-09 11h40.08.568620 +0530,
